File: esercitazione_a/res/acquisizioni-ceramica-mstolfi/MODULOFASEMODOTHICKNES.CSV
!Keysight Technologies,E4990A,MY54403861,A.04.00
!Date: Wed Mar 26 11:24:29 2025

BEGIN CH1_DATA
Frequency(Hz), |Z|(Ohm)-data, theta-z(deg)-data
950000, 60.8781, -80.8688
950225, 60.5282, -80.8945
950450, 60.161, -80.9547
950675, 59.7585, -80.998
950900, 59.368, -81.0118
951125, 58.9907, -81.018
951350, 58.6253, -81.0223
951575, 58.2695, -81.0287
951800, 57.9146, -81.0399
952025, 57.5528, -81.0465
952250, 57.1865, -81.0396
952475, 56.8307, -81.0144
952700, 56.4871, -80.9826
952925, 56.1544, -80.9458
953150, 55.8302, -80.9044
953375, 55.5182, -80.8568
953600, 55.2203, -80.8132
953825, 54.9263, -80.7774
954050, 54.6322, -80.7458
954275, 54.3325, -80.7086
954500, 54.0374, -80.6604
954725, 53.7469, -80.6077
954950, 53.4645, -80.5448
955175, 53.1847, -80.4818
955400, 52.9133, -80.4025
955625, 52.6545, -80.3205
955850, 52.4069, -80.2368
956075, 52.1681, -80.1486
956300, 51.9397, -80.0566
956525, 51.726, -79.9594
956750, 51.5265, -79.865
956975, 51.3418, -79.7725
957200, 51.1737, -79.6856
957425, 51.0199, -79.6068
957650, 50.879, -79.5436
957875, 50.7446, -79.4928
958100, 50.6184, -79.4559
958325, 50.5004, -79.4268
958550, 50.3921, -79.4146
958775, 50.2937, -79.4213
959000, 50.2027, -79.4578
959225, 50.1096, -79.5217
959450, 50.0083, -79.6149
959675, 49.8927, -79.7351
959900, 49.7547, -79.8773
960125, 49.5907, -80.0285
960350, 49.4037, -80.1733
960575, 49.2104, -80.3131
960800, 49.0083, -80.4449
961025, 48.8139, -80.5857
961250, 48.6027, -80.7402
961475, 48.3789, -80.8988
961700, 48.1426, -81.0572
961925, 47.8945, -81.2142
962150, 47.6337, -81.3683
962375, 47.3636, -81.516
962600, 47.0888, -81.6569
962825, 46.8041, -81.7932
963050, 46.5154, -81.9213
963275, 46.2244, -82.0436
963500, 45.9285, -82.1639
963725, 45.6284, -82.2779
963950, 45.3247, -82.3866
964175, 45.0166, -82.4902
964400, 44.7062, -82.5866
964625, 44.3937, -82.6786
964850, 44.079, -82.7653
965075, 43.7627, -82.8458
965300, 43.4444, -82.9198
965525, 43.1238, -82.9887
965750, 42.8014, -83.0493
965975, 42.4766, -83.1017
966200, 42.1525, -83.1448
966425, 41.8311, -83.1751
966650, 41.5139, -83.1961
966875, 41.2051, -83.2072
967100, 40.9085, -83.2192
967325, 40.6182, -83.2417
967550, 40.3281, -83.2749
967775, 40.0331, -83.316
968000, 39.7331, -83.3583
968225, 39.4278, -83.3985
968450, 39.1188, -83.4327
968675, 38.8085, -83.4633
968900, 38.4972, -83.4851
969125, 38.1864, -83.5049
969350, 37.8771, -83.5197
969575, 37.5676, -83.5336
969800, 37.2592, -83.5429
970025, 36.9504, -83.553
970250, 36.6405, -83.5589
970475, 36.3306, -83.563
970700, 36.0216, -83.563
970925, 35.7123, -83.5625
971150, 35.4018, -83.5574
971375, 35.0912, -83.5486
971600, 34.7844, -83.5378
971825, 34.4744, -83.529
972050, 34.1635, -83.5156
972275, 33.8525, -83.4974
972500, 33.541, -83.4751
972725, 33.2286, -83.4515
972950, 32.9189, -83.4187
973175, 32.6092, -83.3832
973400, 32.3012, -83.3463
973625, 31.9938, -83.308
973850, 31.6864, -83.2653
974075, 31.3804, -83.2209
974300, 31.0749, -83.1752
974525, 30.7699, -83.1285
974750, 30.4641, -83.0816
974975, 30.1586, -83.03
975200, 29.8525, -82.9784
975425, 29.547, -82.9238
975650, 29.2409, -82.8663
975875, 28.9347, -82.8068
976100, 28.6291, -82.7471
976325, 28.323, -82.6831
976550, 28.0159, -82.619
976775, 27.7083, -82.5507
977000, 27.3993, -82.4814
977225, 27.0902, -82.4103
977450, 26.7803, -82.3356
977675, 26.4686, -82.2567
977900, 26.157, -82.1718
978125, 25.8445, -82.0853
978350, 25.5319, -81.9942
978575, 25.2191, -81.8968
978800, 24.9045, -81.7964
979025, 24.5911, -81.6918
979250, 24.2763, -81.584
979475, 23.9604, -81.4698
979700, 23.6446, -81.3502
979925, 23.3278, -81.2269
980150, 23.0105, -81.0959
980375, 22.6923, -80.9603
980600, 22.3746, -80.8181
980825, 22.0558, -80.67
981050, 21.7363, -80.5124
981275, 21.4162, -80.3515
981500, 21.0953, -80.1816
981725, 20.7746, -80.0028
981950, 20.4531, -79.8124
982175, 20.1316, -79.6182
982400, 19.8093, -79.4082
982625, 19.4883, -79.1932
982850, 19.1665, -78.9678
983075, 18.8456, -78.7359
983300, 18.5239, -78.4933
983525, 18.2016, -78.2431
983750, 17.8782, -77.9821
983975, 17.5538, -77.7089
984200, 17.2283, -77.4196
984425, 16.9029, -77.1179
984650, 16.5775, -76.8041
984875, 16.2513, -76.4723
985100, 15.9245, -76.1272
985325, 15.5966, -75.7649
985550, 15.2674, -75.3789
985775, 14.9389, -74.9673
986000, 14.6091, -74.5399
986225, 14.2806, -74.0812
986450, 13.9515, -73.6
986675, 13.6228, -73.0914
986900, 13.2944, -72.5554
987125, 12.9652, -71.985
987350, 12.6364, -71.3812
987575, 12.3078, -70.7388
987800, 11.9791, -70.0537
988025, 11.6514, -69.3187
988250, 11.3255, -68.5345
988475, 11.0013, -67.7047
988700, 10.6786, -66.8199
988925, 10.356, -65.8738
989150, 10.0346, -64.8612
989375, 9.71447, -63.7677
989600, 9.3961, -62.5896
989825, 9.08066, -61.3109
990050, 8.7685, -59.9274
990275, 8.46072, -58.419
990500, 8.15851, -56.7865
990725, 7.86248, -55.0042
990950, 7.57371, -53.0626
991175, 7.29464, -50.9541
991400, 7.02506, -48.6469
991625, 6.76771, -46.1289
991850, 6.52543, -43.3902
992075, 6.30108, -40.4134
992300, 6.09708, -37.2206
992525, 5.91466, -33.8157
992750, 5.75333, -30.1906
992975, 5.61451, -26.3593
993200, 5.5014, -22.3026
993425, 5.41913, -18.0505
993650, 5.37, -13.6474
993875, 5.35551, -9.16389
994100, 5.3772, -4.64891
994325, 5.43527, -0.189642
994550, 5.52864, 4.18505
994775, 5.65652, 8.40462
995000, 5.81886, 12.4195
995225, 6.01246, 16.2057
995450, 6.23455, 19.7311
995675, 6.48261, 22.9907
995900, 6.754, 25.9889
996125, 7.04462, 28.7173
996350, 7.34634, 31.1856
996575, 7.65665, 33.4865
996800, 7.97861, 35.664
997025, 8.31856, 37.7244
997250, 8.67703, 39.6431
997475, 9.05438, 41.4307
997700, 9.45418, 43.0775
997925, 9.88395, 44.5468
998150, 10.3224, 45.7043
998375, 10.7379, 46.7735
998600, 11.1653, 47.8414
998825, 11.6094, 48.8313
999050, 12.0656, 49.7132
999275, 12.532, 50.4921
999500, 13.0029, 51.1783
999725, 13.4765, 51.7961
999950, 13.9538, 52.3581
1.00018e+06, 14.4364, 52.889
1.0004e+06, 14.9324, 53.3687
1.00062e+06, 15.439, 53.7839
1.00085e+06, 15.9513, 54.1286
1.00108e+06, 16.4682, 54.4189
1.0013e+06, 16.9909, 54.6578
1.00152e+06, 17.5181, 54.8512
1.00175e+06, 18.05, 54.9952
1.00198e+06, 18.5856, 55.0865
1.0022e+06, 19.1243, 55.1279
1.00242e+06, 19.6638, 55.117
1.00265e+06, 20.2011, 55.0647
1.00288e+06, 20.7325, 54.9734
1.0031e+06, 21.2611, 54.8551
1.00332e+06, 21.7865, 54.708
1.00355e+06, 22.3126, 54.5362
1.00378e+06, 22.8404, 54.3346
1.004e+06, 23.3676, 54.0796
1.00422e+06, 23.8854, 53.7658
1.00445e+06, 24.3848, 53.4101
1.00468e+06, 24.8627, 53.0293
1.0049e+06, 25.3197, 52.6389
1.00512e+06, 25.7562, 52.2439
1.00535e+06, 26.1807, 51.8558
1.00558e+06, 26.5953, 51.4659
1.0058e+06, 27.0043, 51.0566
1.00602e+06, 27.4032, 50.625
1.00625e+06, 27.7883, 50.1587
1.00648e+06, 28.1519, 49.6605
1.0067e+06, 28.4895, 49.1282
1.00692e+06, 28.7937, 48.572
1.00715e+06, 29.062, 47.9971
1.00738e+06, 29.291, 47.4099
1.0076e+06, 29.4784, 46.8218
1.00782e+06, 29.6205, 46.235
1.00805e+06, 29.7163, 45.6538
1.00828e+06, 29.7628, 45.0921
1.0085e+06, 29.7598, 44.5542
1.00872e+06, 29.7015, 44.0508
1.00895e+06, 29.5856, 43.5965
1.00918e+06, 29.4115, 43.2139
1.0094e+06, 29.1833, 42.9225
1.00962e+06, 28.9099, 42.7531
1.00985e+06, 28.6017, 42.7118
1.01008e+06, 28.2663, 42.8206
1.0103e+06, 27.9206, 43.0853
1.01052e+06, 27.5726, 43.5111
1.01075e+06, 27.23, 44.12
1.01098e+06, 26.9556, 44.9519
1.0112e+06, 26.7139, 45.7293
1.01142e+06, 26.4689, 46.7038
1.01165e+06, 26.2774, 47.8171
1.01188e+06, 26.1359, 49.0346
1.0121e+06, 26.0536, 50.3445
1.01232e+06, 26.0385, 51.7053
1.01255e+06, 26.0724, 53.1037
1.01278e+06, 26.1703, 54.5423
1.013e+06, 26.331, 55.9881
1.01322e+06, 26.5578, 57.4305
1.01345e+06, 26.8473, 58.8378
1.01368e+06, 27.1984, 60.1953
1.0139e+06, 27.6073, 61.4898
1.01412e+06, 28.0756, 62.7042
1.01435e+06, 28.603, 63.8044
1.01458e+06, 29.1663, 64.7362
1.0148e+06, 29.7156, 65.5219
1.01502e+06, 30.2367, 66.2356
1.01525e+06, 30.7235, 66.9027
1.01548e+06, 31.1605, 67.635
1.0157e+06, 31.6469, 68.4811
1.01592e+06, 32.2042, 69.2975
1.01615e+06, 32.8038, 70.0331
1.01638e+06, 33.4161, 70.6821
1.0166e+06, 34.0098, 71.2782
1.01682e+06, 34.5946, 71.8929
1.01705e+06, 35.2033, 72.5472
1.01728e+06, 35.8803, 73.1962
1.0175e+06, 36.5927, 73.734
1.01772e+06, 37.3009, 74.2387
1.01795e+06, 38.0279, 74.7069
1.01818e+06, 38.7699, 75.136
1.0184e+06, 39.5249, 75.524
1.01862e+06, 40.2828, 75.875
1.01885e+06, 41.0457, 76.1937
1.01908e+06, 41.8107, 76.4823
1.0193e+06, 42.5709, 76.7457
1.01952e+06, 43.3281, 76.9936
1.01975e+06, 44.0818, 77.2317
1.01998e+06, 44.8346, 77.4608
1.0202e+06, 45.5876, 77.6855
1.02042e+06, 46.3437, 77.909
1.02065e+06, 47.1019, 78.1326
1.02088e+06, 47.869, 78.3581
1.0211e+06, 48.6456, 78.5834
1.02132e+06, 49.4348, 78.8088
1.02155e+06, 50.2374, 79.0319
1.02178e+06, 51.0578, 79.2514
1.022e+06, 51.8909, 79.4642
1.02222e+06, 52.7391, 79.672
1.02245e+06, 53.6126, 79.8749
1.02268e+06, 54.5044, 80.0633
1.0229e+06, 55.413, 80.2367
1.02312e+06, 56.3365, 80.3983
1.02335e+06, 57.2738, 80.5454
1.02358e+06, 58.2246, 80.6808
1.0238e+06, 59.1856, 80.8022
1.02402e+06, 60.1568, 80.9114
1.02425e+06, 61.1339, 81.0126
1.02448e+06, 62.1209, 81.1084
1.0247e+06, 63.1199, 81.2006
1.02492e+06, 64.1302, 81.2851
1.02515e+06, 65.1564, 81.3673
1.02538e+06, 66.1984, 81.4412
1.0256e+06, 67.2523, 81.5071
1.02582e+06, 68.3201, 81.5659
1.02605e+06, 69.3993, 81.6194
1.02628e+06, 70.4906, 81.6707
1.0265e+06, 71.5988, 81.7203
1.02672e+06, 72.7311, 81.7635
1.02695e+06, 73.8766, 81.7971
1.02718e+06, 75.0382, 81.8239
1.0274e+06, 76.214, 81.849
1.02762e+06, 77.4107, 81.8697
1.02785e+06, 78.6294, 81.8857
1.02808e+06, 79.8653, 81.8939
1.0283e+06, 81.1243, 81.896
1.02852e+06, 82.4004, 81.8906
1.02875e+06, 83.6951, 81.8788
1.02898e+06, 85.0104, 81.8618
1.0292e+06, 86.3473, 81.8366
1.02942e+06, 87.7021, 81.8063
1.02965e+06, 89.083, 81.7685
1.02988e+06, 90.4797, 81.7273
1.0301e+06, 91.8993, 81.6776
1.03032e+06, 93.3386, 81.6213
1.03055e+06, 94.7977, 81.5593
1.03078e+06, 96.2827, 81.4937
1.031e+06, 97.7839, 81.4219
1.03122e+06, 99.3092, 81.3465
1.03145e+06, 100.856, 81.2677
1.03168e+06, 102.43, 81.1861
1.0319e+06, 104.03, 81.1023
1.03212e+06, 105.658, 81.0154
1.03235e+06, 107.317, 80.9243
1.03258e+06, 109.005, 80.8312
1.0328e+06, 110.729, 80.7403
1.03302e+06, 112.498, 80.6508
1.03325e+06, 114.324, 80.5538
1.03348e+06, 116.208, 80.4449
1.0337e+06, 118.131, 80.3213
1.03392e+06, 120.09, 80.189
1.03415e+06, 122.095, 80.0472
1.03438e+06, 124.144, 79.8983
1.0346e+06, 126.241, 79.7379
1.03482e+06, 128.394, 79.5635
1.03505e+06, 130.598, 79.3792
1.03528e+06, 132.841, 79.1828
1.0355e+06, 135.129, 78.9739
1.03572e+06, 137.47, 78.7515
1.03595e+06, 139.856, 78.5169
1.03618e+06, 142.287, 78.2757
1.0364e+06, 144.77, 78.0241
1.03662e+06, 147.304, 77.7662
1.03685e+06, 149.905, 77.4997
1.03708e+06, 152.568, 77.2237
1.0373e+06, 155.3, 76.9407
1.03752e+06, 158.112, 76.647
1.03775e+06, 161.012, 76.3412
1.03798e+06, 163.998, 76.0198
1.0382e+06, 167.07, 75.6892
1.03842e+06, 170.239, 75.3414
1.03865e+06, 173.504, 74.9754
1.03888e+06, 176.881, 74.596
1.0391e+06, 180.366, 74.1992
1.03932e+06, 183.97, 73.7852
1.03955e+06, 187.727, 73.3483
1.03978e+06, 191.613, 72.8856
1.04e+06, 195.642, 72.3992
1.04022e+06, 199.832, 71.8798
1.04045e+06, 204.172, 71.3327
1.04068e+06, 208.684, 70.7532
1.0409e+06, 213.382, 70.1313
1.04112e+06, 218.257, 69.4741
1.04135e+06, 223.321, 68.7755
1.04158e+06, 228.609, 68.0272
1.0418e+06, 234.101, 67.2264
1.04202e+06, 239.819, 66.3653
1.04225e+06, 245.741, 65.4458
1.04248e+06, 251.897, 64.4583
1.0427e+06, 258.286, 63.4002
1.04292e+06, 264.922, 62.2657
1.04315e+06, 271.773, 61.0397
1.04338e+06, 278.873, 59.7184
1.0436e+06, 286.161, 58.2887
1.04382e+06, 293.6, 56.7445
1.04405e+06, 301.145, 55.0837
1.04428e+06, 308.719, 53.2869
1.0445e+06, 316.283, 51.3527
1.04472e+06, 323.708, 49.2756
1.04495e+06, 330.887, 47.052
1.04518e+06, 337.669, 44.6759
1.0454e+06, 343.859, 42.1463
1.04562e+06, 349.344, 39.4774
1.04585e+06, 353.93, 36.6663
1.04608e+06, 357.365, 33.7232
1.0463e+06, 359.366, 30.6707
1.04652e+06, 359.925, 27.5614
1.04675e+06, 358.983, 24.4043
1.04698e+06, 356.463, 21.2201
1.0472e+06, 352.299, 18.0419
1.04742e+06, 346.608, 14.9189
1.04765e+06, 339.411, 11.8761
1.04788e+06, 331.004, 8.94323
1.0481e+06, 321.558, 6.15637
1.04832e+06, 311.274, 3.53417
1.04855e+06, 300.416, 1.09146
1.04878e+06, 289.163, -1.15307
1.049e+06, 277.753, -3.18853
1.04922e+06, 266.445, -5.02364
1.04945e+06, 255.277, -6.67541
1.04968e+06, 244.354, -8.14385
1.0499e+06, 233.737, -9.43056
1.05012e+06, 223.472, -10.5416
1.05035e+06, 213.604, -11.4859
1.05058e+06, 204.154, -12.2746
1.0508e+06, 195.137, -12.9124
1.05102e+06, 186.516, -13.4101
1.05125e+06, 178.3, -13.7709
1.05148e+06, 170.454, -14.0012
1.0517e+06, 162.925, -14.0936
1.05192e+06, 155.753, -14.0147
1.05215e+06, 149.047, -13.7834
1.05238e+06, 142.748, -13.4399
1.0526e+06, 136.798, -12.9834
1.05282e+06, 131.16, -12.4041
1.05305e+06, 125.826, -11.6978
1.05328e+06, 120.808, -10.8631
1.0535e+06, 116.085, -9.90047
1.05372e+06, 111.649, -8.81242
1.05395e+06, 107.481, -7.58831
1.05418e+06, 103.592, -6.21642
1.0544e+06, 100.022, -4.6934
1.05462e+06, 96.7705, -3.0536
1.05485e+06, 93.7767, -1.28611
1.05508e+06, 91.1071, 0.637384
1.0553e+06, 88.8141, 2.68228
1.05552e+06, 86.9087, 4.7916
1.05575e+06, 85.3539, 6.91281
1.05598e+06, 84.0814, 9.0065
1.0562e+06, 83.0348, 11.065
1.05642e+06, 82.1763, 13.0933
1.05665e+06, 81.4957, 15.0888
1.05688e+06, 80.9877, 17.0408
1.0571e+06, 80.6176, 18.9263
1.05732e+06, 80.3357, 20.7499
1.05755e+06, 80.1217, 22.5299
1.05778e+06, 79.9707, 24.2804
1.058e+06, 79.8844, 26.0121
1.05822e+06, 79.8598, 27.7266
1.05845e+06, 79.9042, 29.4257
1.05868e+06, 80.0201, 31.1164
1.0589e+06, 80.2146, 32.7987
1.05912e+06, 80.4914, 34.4607
1.05935e+06, 80.8365, 36.1015
1.05958e+06, 81.2471, 37.7319
1.0598e+06, 81.7274, 39.3563
1.06002e+06, 82.2957, 40.9733
1.06025e+06, 82.9567, 42.5814
1.06048e+06, 83.7205, 44.1801
1.0607e+06, 84.5934, 45.7561
1.06092e+06, 85.5879, 47.312
1.06115e+06, 86.7281, 48.8375
1.06138e+06, 88.0356, 50.3061
1.0616e+06, 89.4982, 51.6574
1.06182e+06, 90.9835, 52.8672
1.06205e+06, 92.3833, 54.0202
1.06228e+06, 93.7706, 55.1875
1.0625e+06, 95.2378, 56.3626
1.06272e+06, 96.8099, 57.5128
1.06295e+06, 98.4758, 58.6244
1.06318e+06, 100.222, 59.6968
1.0634e+06, 102.053, 60.7271
1.06362e+06, 103.971, 61.7083
1.06385e+06, 105.96, 62.6363
1.06408e+06, 107.996, 63.5181
1.0643e+06, 110.085, 64.3557
1.06452e+06, 112.216, 65.1586
1.06475e+06, 114.405, 65.9383
1.06498e+06, 116.698, 66.6869
1.0652e+06, 119.078, 67.3554
1.06542e+06, 121.398, 67.9836
1.06565e+06, 123.801, 68.6088
1.06588e+06, 126.25, 69.1769
1.0661e+06, 128.694, 69.7227
1.06632e+06, 131.183, 70.258
1.06655e+06, 133.731, 70.771
1.06678e+06, 136.337, 71.2577
1.067e+06, 138.984, 71.7125
1.06722e+06, 141.674, 72.1488
1.06745e+06, 144.417, 72.5635
1.06768e+06, 147.208, 72.9547
1.0679e+06, 150.048, 73.3157
1.06812e+06, 152.927, 73.6544
1.06835e+06, 155.828, 73.9682
1.06858e+06, 158.762, 74.2619
1.0688e+06, 161.715, 74.5385
1.06902e+06, 164.687, 74.7995
1.06925e+06, 167.678, 75.0534
1.06948e+06, 170.708, 75.303
1.0697e+06, 173.828, 75.5445
1.06992e+06, 176.983, 75.7565
1.07015e+06, 180.167, 75.954
1.07038e+06, 183.37, 76.1321
1.0706e+06, 186.557, 76.3076
1.07082e+06, 189.789, 76.4884
1.07105e+06, 193.086, 76.6627
1.07128e+06, 196.413, 76.8328
1.0715e+06, 199.813, 77.0044
1.07172e+06, 203.311, 77.1631
1.07195e+06, 206.869, 77.3119
1.07218e+06, 210.484, 77.4435
1.0724e+06, 214.14, 77.5661
1.07262e+06, 217.847, 77.681
1.07285e+06, 221.645, 77.7834
1.07308e+06, 225.445, 77.8762
1.0733e+06, 229.304, 77.966
1.07352e+06, 233.235, 78.0538
1.07375e+06, 237.227, 78.134
1.07398e+06, 241.312, 78.2063
1.0742e+06, 245.48, 78.2668
1.07442e+06, 249.671, 78.3128
1.07465e+06, 253.909, 78.3481
1.07488e+06, 258.2, 78.3817
1.0751e+06, 262.505, 78.4093
1.07532e+06, 266.859, 78.4395
1.07555e+06, 271.263, 78.4772
1.07578e+06, 275.765, 78.5141
1.076e+06, 280.379, 78.5538
1.07622e+06, 285.091, 78.5955
1.07645e+06, 289.915, 78.6292
1.07668e+06, 294.87, 78.6564
1.0769e+06, 299.906, 78.6738
1.07712e+06, 305.048, 78.6896
1.07735e+06, 310.272, 78.6931
1.07758e+06, 315.573, 78.6989
1.0778e+06, 321.011, 78.7033
1.07802e+06, 326.562, 78.7038
1.07825e+06, 332.237, 78.7003
1.07848e+06, 338.007, 78.6971
1.0787e+06, 343.962, 78.6884
1.07892e+06, 350.039, 78.6738
1.07915e+06, 356.256, 78.6511
1.07938e+06, 362.636, 78.6204
1.0796e+06, 369.112, 78.5866
1.07982e+06, 375.72, 78.5536
1.08005e+06, 382.509, 78.5142
1.08028e+06, 389.448, 78.4712
1.0805e+06, 396.546, 78.4221
1.08072e+06, 403.836, 78.3716
1.08095e+06, 411.312, 78.3167
1.08118e+06, 419.007, 78.2597
1.0814e+06, 426.855, 78.1953
1.08162e+06, 434.932, 78.1284
1.08185e+06, 443.223, 78.0492
1.08208e+06, 451.758, 77.9748
1.0823e+06, 460.498, 77.8899
1.08252e+06, 469.492, 77.8008
1.08275e+06, 478.739, 77.7034
1.08298e+06, 488.227, 77.6054
1.0832e+06, 498.05, 77.4938
1.08342e+06, 508.141, 77.3872
1.08365e+06, 518.536, 77.2667
1.08388e+06, 529.224, 77.1414
1.0841e+06, 540.303, 77.002
1.08432e+06, 551.629, 76.8659
1.08455e+06, 563.369, 76.7118
1.08478e+06, 575.499, 76.5554
1.085e+06, 587.919, 76.3948
1.08522e+06, 600.772, 76.2274
1.08545e+06, 614.08, 76.0555
1.08568e+06, 627.879, 75.8762
1.0859e+06, 642.179, 75.6853
1.08612e+06, 657.005, 75.4857
1.08635e+06, 672.321, 75.2788
1.08658e+06, 688.264, 75.0661
1.0868e+06, 704.881, 74.84
1.08702e+06, 722.187, 74.6001
1.08725e+06, 740.164, 74.3434
1.08748e+06, 758.814, 74.0706
1.0877e+06, 778.196, 73.7856
1.08792e+06, 798.355, 73.4861
1.08815e+06, 819.318, 73.1736
1.08838e+06, 841.193, 72.8485
1.0886e+06, 864.037, 72.5065
1.08882e+06, 887.906, 72.1492
1.08905e+06, 912.885, 71.7733
1.08928e+06, 939.047, 71.3793
1.0895e+06, 966.444, 70.9653
1.08972e+06, 995.199, 70.5292
1.08995e+06, 1025.39, 70.0707
1.09018e+06, 1057.16, 69.5876
1.0904e+06, 1090.58, 69.0783
1.09062e+06, 1125.82, 68.5421
1.09085e+06, 1163.05, 67.9782
1.09108e+06, 1202.44, 67.3765
1.0913e+06, 1244.17, 66.7409
1.09152e+06, 1288.44, 66.0645
1.09175e+06, 1335.4, 65.3449
1.09198e+06, 1385.48, 64.5778
1.0922e+06, 1438.86, 63.7559
1.09242e+06, 1495.9, 62.8751
1.09265e+06, 1556.9, 61.9288
1.09288e+06, 1622.31, 60.9062
1.0931e+06, 1692.45, 59.7986
1.09332e+06, 1767.77, 58.5958
1.09355e+06, 1848.8, 57.2826
1.09378e+06, 1935.89, 55.8554
1.094e+06, 2029.74, 54.2883
1.09422e+06, 2130.66, 52.5725
1.09445e+06, 2239.34, 50.6898
1.09468e+06, 2356.26, 48.6075
1.0949e+06, 2481.49, 46.3022
1.09512e+06, 2614.94, 43.7464
1.09535e+06, 2756.06, 40.9148
1.09558e+06, 2903.93, 37.7781
1.0958e+06, 3056.26, 34.3152
1.09602e+06, 3210.71, 30.4987
1.09625e+06, 3362.88, 26.3212
1.09648e+06, 3507.81, 21.7761
1.0967e+06, 3638.67, 16.8809
1.09692e+06, 3748.72, 11.6724
1.09715e+06, 3830.33, 6.21365
1.09738e+06, 3877.49, 0.59631
1.0976e+06, 3886.63, -5.08629
1.09782e+06, 3857.96, -10.7135
1.09805e+06, 3793.88, -16.179
1.09828e+06, 3699.89, -21.3968
1.0985e+06, 3582.67, -26.2943
1.09872e+06, 3450.4, -30.8327
1.09895e+06, 3309.82, -35.0079
1.09918e+06, 3165.39, -38.8256
1.0994e+06, 3021.5, -42.2921
1.09962e+06, 2881.19, -45.427
1.09985e+06, 2746.17, -48.2564
1.10008e+06, 2618.44, -50.8143
1.1003e+06, 2497.91, -53.1208
1.10052e+06, 2385.03, -55.2084
1.10075e+06, 2279.54, -57.0987
1.10098e+06, 2181.3, -58.8183
1.1012e+06, 2089.75, -60.3835
1.10142e+06, 2004.52, -61.8105
1.10165e+06, 1925.18, -63.1157
1.10188e+06, 1851.3, -64.3099
1.1021e+06, 1782.35, -65.4076
1.10232e+06, 1718.08, -66.4173
1.10255e+06, 1658.01, -67.3471
1.10278e+06, 1601.83, -68.2058
1.103e+06, 1549.22, -69.0003
1.10322e+06, 1499.92, -69.7368
1.10345e+06, 1453.72, -70.4197
1.10368e+06, 1410.24, -71.0585
1.1039e+06, 1369.4, -71.6576
1.10412e+06, 1330.93, -72.22
1.10435e+06, 1294.54, -72.7516
1.10458e+06, 1260.1, -73.2507
1.1048e+06, 1227.43, -73.723
1.10502e+06, 1196.42, -74.1652
1.10525e+06, 1166.97, -74.5839
1.10548e+06, 1138.97, -74.9799
1.1057e+06, 1112.34, -75.3525
1.10592e+06, 1086.95, -75.7052
1.10615e+06, 1062.76, -76.0403
1.10638e+06, 1039.65, -76.3596
1.1066e+06, 1017.54, -76.662
1.10682e+06, 996.394, -76.9494
1.10705e+06, 976.132, -77.2216
1.10728e+06, 956.718, -77.481
1.1075e+06, 938.124, -77.7288
1.10772e+06, 920.256, -77.9631
1.10795e+06, 903.112, -78.1873
1.10818e+06, 886.614, -78.4015
1.1084e+06, 870.738, -78.606
1.10862e+06, 855.462, -78.8017
1.10885e+06, 840.754, -78.9891
1.10908e+06, 826.568, -79.1688
1.1093e+06, 812.902, -79.3408
1.10952e+06, 799.68, -79.5069
1.10975e+06, 786.929, -79.6662
1.10998e+06, 774.569, -79.8185
1.1102e+06, 762.61, -79.965
1.11042e+06, 751.049, -80.1046
1.11065e+06, 739.841, -80.2384
1.11088e+06, 728.998, -80.3675
1.1111e+06, 718.478, -80.4903
1.11132e+06, 708.295, -80.6094
1.11155e+06, 698.418, -80.7233
1.11178e+06, 688.828, -80.8337
1.112e+06, 679.52, -80.9418
1.11222e+06, 670.465, -81.0482
1.11245e+06, 661.66, -81.15
1.11268e+06, 653.062, -81.2498
1.1129e+06, 644.691, -81.3437
1.11312e+06, 636.521, -81.4362
1.11335e+06, 628.553, -81.5241
1.11358e+06, 620.781, -81.6074
1.1138e+06, 613.201, -81.6881
1.11402e+06, 605.81, -81.764
1.11425e+06, 598.584, -81.8368
1.11448e+06, 591.525, -81.905
1.1147e+06, 584.677, -81.9636
1.11492e+06, 578.032, -82.0351
1.11515e+06, 571.444, -82.0968
1.11538e+06, 565.017, -82.1541
1.1156e+06, 558.757, -82.2094
1.11582e+06, 552.64, -82.2629
1.11605e+06, 546.635, -82.315
1.11628e+06, 540.747, -82.3639
1.1165e+06, 534.981, -82.4095
1.11672e+06, 529.328, -82.4525
1.11695e+06, 523.797, -82.4932
1.11718e+06, 518.366, -82.5317
1.1174e+06, 513.045, -82.5655
1.11762e+06, 507.827, -82.5976
1.11785e+06, 502.715, -82.6261
1.11808e+06, 497.713, -82.6559
1.1183e+06, 492.784, -82.6813
1.11852e+06, 487.971, -82.7007
1.11875e+06, 483.247, -82.7239
1.11898e+06, 478.603, -82.748
1.1192e+06, 473.984, -82.7644
1.11942e+06, 469.48, -82.7745
1.11965e+06, 465.053, -82.7913
1.11988e+06, 460.71, -82.7979
1.1201e+06, 456.433, -82.8077
1.12032e+06, 452.232, -82.8138
1.12055e+06, 448.106, -82.817
1.12078e+06, 444.016, -82.8225
1.121e+06, 439.996, -82.822
1.12122e+06, 436.064, -82.8228
1.12145e+06, 432.145, -82.8143
1.12168e+06, 428.277, -82.8106
1.1219e+06, 424.505, -82.7996
1.12212e+06, 420.76, -82.7911
1.12235e+06, 417.09, -82.7782
1.12258e+06, 413.466, -82.7639
1.1228e+06, 409.892, -82.7494
1.12302e+06, 406.328, -82.7305
1.12325e+06, 402.826, -82.7068
1.12348e+06, 399.361, -82.683
1.1237e+06, 395.943, -82.6565
1.12392e+06, 392.57, -82.6294
1.12415e+06, 389.236, -82.6009
1.12438e+06, 385.911, -82.571
1.1246e+06, 382.637, -82.5344
1.12482e+06, 379.399, -82.5013
1.12505e+06, 376.16, -82.4631
1.12528e+06, 372.942, -82.4186
1.1255e+06, 369.762, -82.3689
1.12572e+06, 366.628, -82.3168
1.12595e+06, 363.504, -82.2599
1.12618e+06, 360.438, -82.1979
1.1264e+06, 357.376, -82.1331
1.12662e+06, 354.346, -82.0683
1.12685e+06, 351.345, -81.9957
1.12708e+06, 348.358, -81.9194
1.1273e+06, 345.41, -81.8403
1.12752e+06, 342.486, -81.7506
1.12775e+06, 339.601, -81.6606
1.12798e+06, 336.767, -81.5729
1.1282e+06, 333.923, -81.4902
1.12842e+06, 331.017, -81.399
1.12865e+06, 328.096, -81.3001
1.12888e+06, 325.197, -81.1949
1.1291e+06, 322.305, -81.081
1.12932e+06, 319.402, -80.9553
1.12955e+06, 316.526, -80.8214
1.12978e+06, 313.64, -80.6749
1.13e+06, 310.786, -80.5241
END